Folder: 2024-RadCor-Pb-316/TEM/Phase boundary linescan/Project 2_phase boundary/CO_phase boundary

Note: README.md
# 2024-RadCor-Pb-316
Data and image repository for first paper about radiation/corrosion in liquid lead

Software versions used are cited in the manuscript file.

File: Line Sum Spectrum.txt
#FORMAT      : EMSA/MAS Spectral Data File
#VERSION     : 1.0
#TITLE       : Line Sum Spectrum
#DATE        : 08-NOV-2023
#TIME        : 15:10
#OWNER       :
#NPOINTS     : 2048.0
#NCOLUMNS    : 1.0
#XUNITS      : keV
#YUNITS      : counts
#DATATYPE    : XY
#XPERCHAN    : 0.01
#OFFSET      : -0.2
#SIGNALTYPE  : EDS
#CHOFFSET    : 20.0
#LIVETIME    : 345.0
#REALTIME    : 350.439
#BEAMKV      : 200.0
#MAGCAM      : 120000.0
#XTILTSTGE   : 0.0
#AZIMANGLE   : 0.0
#ELEVANGLE   : 26.3
#XPOSITION mm: 0.0000
#YPOSITION mm: 0.0000
#ZPOSITION mm: 0.0000
##OXINSTPT   : 3
##OXINSTSTROB: 42.63
##OXINSTNDET : 1
##OXINSTELEMS: 12,13,14,21,22,25,26,28,29,30,24,40,6,8,19,42,16,68
##OXINSTLABEL: 12, 1.254, Mg
##OXINSTLABEL: 13, 1.487, Al
##OXINSTLABEL: 14, 1.740, Si
##OXINSTLABEL: 21, 4.091, Sc
##OXINSTLABEL: 21, 4.460, Sc
##OXINSTLABEL: 21, 0.395, Sc
##OXINSTLABEL: 21, 0.348, Sc
##OXINSTLABEL: 22, 4.511, Ti
##OXINSTLABEL: 22, 4.932, Ti
##OXINSTLABEL: 22, 0.452, Ti
##OXINSTLABEL: 22, 0.395, Ti
##OXINSTLABEL: 25, 5.899, Mn
##OXINSTLABEL: 25, 6.490, Mn
##OXINSTLABEL: 25, 0.636, Mn
##OXINSTLABEL: 25, 0.556, Mn
##OXINSTLABEL: 26, 6.404, Fe
##OXINSTLABEL: 26, 7.058, Fe
##OXINSTLABEL: 26, 0.703, Fe
##OXINSTLABEL: 26, 0.615, Fe
##OXINSTLABEL: 28, 7.478, Ni
##OXINSTLABEL: 28, 8.265, Ni
##OXINSTLABEL: 28, 0.851, Ni
##OXINSTLABEL: 28, 0.762, Ni
##OXINSTLABEL: 28, 0.743, Ni
##OXINSTLABEL: 29, 8.048, Cu
##OXINSTLABEL: 29, 8.905, Cu
##OXINSTLABEL: 29, 0.930, Cu
##OXINSTLABEL: 29, 0.832, Cu
##OXINSTLABEL: 29, 0.811, Cu
##OXINSTLABEL: 30, 8.639, Zn
##OXINSTLABEL: 30, 9.572, Zn
##OXINSTLABEL: 30, 1.012, Zn
##OXINSTLABEL: 30, 0.906, Zn
##OXINSTLABEL: 30, 0.884, Zn
##OXINSTLABEL: 24, 5.415, Cr
##OXINSTLABEL: 24, 5.947, Cr
##OXINSTLABEL: 24, 0.573, Cr
##OXINSTLABEL: 24, 0.500, Cr
##OXINSTLABEL: 40, 15.775, Zr
##OXINSTLABEL: 40, 17.668, Zr
##OXINSTLABEL: 40, 17.970, Zr
##OXINSTLABEL: 40, 2.042, Zr
##OXINSTLABEL: 40, 1.877, Zr
##OXINSTLABEL: 40, 2.503, Zr
##OXINSTLABEL: 40, 1.792, Zr
##OXINSTLABEL: 40, 0.151, Zr
##OXINSTLABEL: 6, 0.277, C
##OXINSTLABEL: 8, 0.525, O
##OXINSTLABEL: 19, 3.314, K
##OXINSTLABEL: 19, 3.590, K
##OXINSTLABEL: 19, 0.260, K
##OXINSTLABEL: 42, 17.480, Mo
##OXINSTLABEL: 42, 19.609, Mo
##OXINSTLABEL: 42, 19.965, Mo
##OXINSTLABEL: 42, 2.293, Mo
##OXINSTLABEL: 42, 2.395, Mo
##OXINSTLABEL: 42, 2.120, Mo
##OXINSTLABEL: 42, 2.831, Mo
##OXINSTLABEL: 42, 2.016, Mo
##OXINSTLABEL: 42, 0.193, Mo
##OXINSTLABEL: 16, 2.308, S
##OXINSTLABEL: 16, 2.464, S
##OXINSTLABEL: 68, 6.949, Er
##OXINSTLABEL: 68, 7.811, Er
##OXINSTLABEL: 68, 8.189, Er
##OXINSTLABEL: 68, 7.058, Er
##OXINSTLABEL: 68, 9.089, Er
##OXINSTLABEL: 68, 9.386, Er
##OXINSTLABEL: 68, 6.153, Er
##OXINSTLABEL: 68, 1.406, Er
##OXINSTLABEL: 68, 1.643, Er
##OXINSTLABEL: 68, 1.090, Er
#SPECTRUM    : Spectral Data Starts Here
-0.20000, 0.0
-0.13000, 0.0
-0.06000, 45.0
0.01000, 38695.0
0.08000, 2843.0
0.15000, 388.0
0.22000, 1747.0
0.29000, 9258.0
0.36000, 533.0
0.43000, 706.0
0.50000, 2818.0
0.57000, 3284.0
0.64000, 4233.0
0.71000, 14122.0
0.78000, 1116.0
0.85000, 1634.0
0.92000, 1129.0
0.99000, 401.0
1.06000, 339.0
1.13000, 340.0
1.20000, 291.0
1.27000, 312.0
1.34000, 335.0
1.41000, 369.0
1.48000, 347.0
1.55000, 313.0
1.62000, 301.0
1.69000, 501.0
1.76000, 900.0
1.83000, 335.0
1.90000, 255.0
1.97000, 253.0
2.04000, 278.0
2.11000, 276.0
2.18000, 273.0
2.25000, 447.0
2.32000, 744.0
2.39000, 428.0
2.46000, 327.0
2.53000, 242.0
2.60000, 235.0
2.67000, 236.0
2.74000, 200.0
2.81000, 219.0
2.88000, 247.0
2.95000, 278.0
3.02000, 252.0
3.09000, 223.0
3.16000, 222.0
3.23000, 257.0
3.30000, 448.0
3.37000, 349.0
3.44000, 222.0
3.51000, 193.0
3.58000, 197.0
3.65000, 205.0
3.72000, 197.0
3.79000, 153.0
3.86000, 168.0
3.93000, 151.0
4.00000, 161.0
4.07000, 137.0
4.14000, 154.0
4.21000, 152.0
4.28000, 154.0
4.35000, 132.0
4.42000, 149.0
4.49000, 138.0
4.56000, 164.0
4.63000, 257.0
4.70000, 208.0
4.77000, 140.0
4.84000, 132.0
4.91000, 172.0
4.98000, 195.0
5.05000, 140.0
5.12000, 138.0
5.19000, 140.0
5.26000, 246.0
5.33000, 1346.0
5.40000, 4432.0
5.47000, 2669.0
5.54000, 428.0
5.61000, 148.0
5.68000, 136.0
5.75000, 163.0
5.82000, 298.0
5.89000, 760.0
5.96000, 850.0
6.03000, 337.0
6.10000, 168.0
6.17000, 194.0
6.24000, 766.0
6.31000, 8003.0
6.38000, 27573.0
6.45000, 20215.0
6.52000, 3360.0
6.59000, 291.0
6.66000, 155.0
6.73000, 157.0
6.80000, 263.0
6.87000, 967.0
6.94000, 1962.0
7.01000, 3444.0
7.08000, 3741.0
7.15000, 1208.0
7.22000, 213.0
7.29000, 128.0
7.36000, 375.0
7.43000, 1275.0
7.50000, 1463.0
7.57000, 540.0
7.64000, 233.0
7.71000, 155.0
7.78000, 154.0
7.85000, 222.0
7.92000, 1566.0
7.99000, 6593.0
8.06000, 8591.0
8.13000, 3260.0
8.20000, 570.0
8.27000, 334.0
8.34000, 234.0
8.41000, 144.0
8.48000, 124.0
8.55000, 122.0
8.62000, 148.0
8.69000, 142.0
8.76000, 277.0
8.83000, 880.0
8.90000, 1520.0
8.97000, 885.0
9.04000, 237.0
9.11000, 78.0
9.18000, 73.0
9.25000, 97.0
9.32000, 71.0
9.39000, 61.0
9.46000, 63.0
9.53000, 56.0
9.60000, 51.0
9.67000, 55.0
9.74000, 53.0
9.81000, 53.0
9.88000, 54.0
9.95000, 56.0
10.02000, 57.0
10.09000, 50.0
10.16000, 50.0
10.23000, 39.0
10.30000, 60.0
10.37000, 46.0
10.44000, 50.0
10.51000, 50.0
10.58000, 61.0
10.65000, 53.0
10.72000, 46.0
10.79000, 53.0
10.86000, 44.0
10.93000, 38.0
11.00000, 44.0
11.07000, 44.0
11.14000, 49.0
11.21000, 49.0
11.28000, 53.0
11.35000, 46.0
11.42000, 47.0
11.49000, 54.0
11.56000, 45.0
11.63000, 44.0
11.70000, 46.0
11.77000, 44.0
11.84000, 37.0
11.91000, 42.0
11.98000, 40.0
12.05000, 37.0
12.12000, 45.0
12.19000, 39.0
12.26000, 37.0
12.33000, 41.0
12.40000, 42.0
12.47000, 40.0
12.54000, 43.0
12.61000, 46.0
12.68000, 41.0
12.75000, 41.0
12.82000, 50.0
12.89000, 44.0
12.96000, 41.0
13.03000, 38.0
13.10000, 42.0
13.17000, 39.0
13.24000, 37.0
13.31000, 30.0
13.38000, 35.0
13.45000, 43.0
13.52000, 44.0
13.59000, 39.0
13.66000, 39.0
13.73000, 36.0
13.80000, 38.0
13.87000, 48.0
13.94000, 46.0
14.01000, 37.0
14.08000, 32.0
14.15000, 35.0
14.22000, 46.0
14.29000, 39.0
14.36000, 27.0
14.43000, 45.0
14.50000, 37.0
14.57000, 35.0
14.64000, 22.0
14.71000, 34.0
14.78000, 26.0
14.85000, 33.0
14.92000, 30.0
14.99000, 35.0
15.06000, 36.0
15.13000, 36.0
15.20000, 30.0
15.27000, 25.0
15.34000, 29.0
15.41000, 24.0
15.48000, 31.0
15.55000, 32.0
15.62000, 26.0
15.69000, 29.0
15.76000, 23.0
15.83000, 27.0
15.90000, 33.0
15.97000, 25.0
16.04000, 34.0
16.11000, 28.0
16.18000, 33.0
16.25000, 23.0
16.32000, 26.0
16.39000, 24.0
16.46000, 26.0
16.53000, 21.0
16.60000, 27.0
16.67000, 25.0
16.74000, 22.0
16.81000, 22.0
16.88000, 24.0
16.95000, 21.0
17.02000, 22.0
17.09000, 27.0
17.16000, 28.0
17.23000, 25.0
17.30000, 48.0
17.37000, 57.0
17.44000, 59.0
17.51000, 62.0
17.58000, 33.0
17.65000, 29.0
17.72000, 30.0
17.79000, 34.0
17.86000, 16.0
17.93000, 21.0
18.00000, 28.0
18.07000, 20.0
18.14000, 16.0
18.21000, 15.0
18.28000, 20.0
18.35000, 16.0
18.42000, 20.0
18.49000, 26.0
18.56000, 17.0
18.63000, 23.0
18.70000, 23.0
18.77000, 24.0
18.84000, 18.0
18.91000, 17.0
18.98000, 17.0
19.05000, 15.0
19.12000, 26.0
19.19000, 19.0
19.26000, 15.0
19.33000, 19.0
19.40000, 30.0
19.47000, 25.0
19.54000, 17.0
19.61000, 26.0
19.68000, 21.0
19.75000, 19.0
19.82000, 21.0
19.89000, 17.0
19.96000, 21.0
20.03000, 19.0
20.10000, 14.0
20.17000, 16.0
20.24000, 12.0
20.27000, 15.0
#ENDOFDATA   :